Summary
[Data Information]
Data is:,Measurement Data
Dataset Name:,RawData
Sample Name:,Teste C3 - 0.4 M CTAB
Sample ID
Option
Analyst
Date/Time:,01/06/2023 04:22:20 PM
Comments
Parameter File Name:,bsa.vspm
Report File Name
[Software Information]
Software Name:,LabSolutions UV-Vis
Version:,1.11
[Instrument Information]
Instrument Name:,UV-2600i
Instrument Type:,UV-2600 Series
Model (S/N):,UV-2600i (A12595900700)

Parameter
[Measurement]
Start:,800 nm
End:,200 nm
Data Interval:,1.0
Scan Speed:,Medium speed
Spectrum Type:,Absorbance
[Accessories]
Accessories:,None
[Advanced]
Slit Width:,2.0
Detector Unit:,Direct Receiving of Light
Light Source Switch Wavelength:,323
S/R Switch:,Standard
Stair Correction:,OFF
[Repeat]
Repeat Measurement:,OFF
[Post-processing]
Spectrum Transformation:,OFF
Data Processing Table:,OFF
Print:,OFF

Wavelength (nm),Absorbance
200.0,3.273
201.0,3.343
202.0,3.398
203.0,3.445
204.0,3.477
205.0,3.530
206.0,3.574
207.0,3.607
208.0,3.640
209.0,3.683
210.0,3.722
211.0,3.754
212.0,3.778
213.0,3.822
214.0,3.843
215.0,3.867
216.0,3.896
217.0,3.918
218.0,3.960
219.0,3.991
220.0,3.999
221.0,3.993
222.0,4.026
223.0,4.060
224.0,4.052
225.0,4.069
226.0,4.069
227.0,3.976
228.0,3.792
229.0,3.542
230.0,3.337
231.0,3.190
232.0,3.111
233.0,3.061
234.0,3.032
235.0,3.009
236.0,2.991
237.0,2.972
238.0,2.957
239.0,2.941
240.0,2.925
241.0,2.897
242.0,2.848
243.0,2.769
244.0,2.658
245.0,2.506
246.0,2.321
247.0,2.128
248.0,1.923
249.0,1.722
250.0,1.542
251.0,1.380
252.0,1.233
253.0,1.112
254.0,1.012
255.0,0.927
256.0,0.859
257.0,0.802
258.0,0.752
259.0,0.709
260.0,0.672
261.0,0.637
262.0,0.605
263.0,0.574
264.0,0.545
265.0,0.516
266.0,0.487
267.0,0.459
268.0,0.432
269.0,0.406
270.0,0.379
271.0,0.353
272.0,0.330
273.0,0.308
274.0,0.287
275.0,0.268
276.0,0.249
277.0,0.232
278.0,0.217
279.0,0.202
280.0,0.189
281.0,0.177
282.0,0.167
283.0,0.157
284.0,0.148
285.0,0.140
286.0,0.132
287.0,0.125
288.0,0.119
289.0,0.114
290.0,0.108
291.0,0.103
292.0,0.099
293.0,0.095
294.0,0.091
295.0,0.088
296.0,0.086
297.0,0.083
298.0,0.081
299.0,0.079
300.0,0.077
301.0,0.076
302.0,0.074
303.0,0.073
304.0,0.071
305.0,0.070
306.0,0.068
307.0,0.067
308.0,0.066
309.0,0.065
310.0,0.064
311.0,0.063
312.0,0.061
313.0,0.061
314.0,0.060
315.0,0.059
316.0,0.058
317.0,0.057
318.0,0.056
319.0,0.055
320.0,0.054
321.0,0.053
322.0,0.053
323.0,0.052
324.0,0.051
325.0,0.051
326.0,0.050
327.0,0.049
328.0,0.048
329.0,0.048
330.0,0.047
331.0,0.046
332.0,0.046
333.0,0.045
334.0,0.045
335.0,0.044
336.0,0.044
337.0,0.043
338.0,0.043
339.0,0.042
340.0,0.041
341.0,0.041
342.0,0.041
343.0,0.040
344.0,0.040
345.0,0.039
346.0,0.039
347.0,0.039
348.0,0.039
349.0,0.038
350.0,0.038
351.0,0.038
352.0,0.038
353.0,0.038
354.0,0.038
355.0,0.039
356.0,0.039
357.0,0.039
358.0,0.039
359.0,0.040
360.0,0.040
361.0,0.041
362.0,0.041
363.0,0.042
364.0,0.042
365.0,0.043
366.0,0.044
367.0,0.044
368.0,0.045
369.0,0.046
370.0,0.047
371.0,0.047
372.0,0.048
373.0,0.049
374.0,0.050
375.0,0.051
376.0,0.051
377.0,0.052
378.0,0.053
379.0,0.054
380.0,0.054
381.0,0.055
382.0,0.056
383.0,0.056
384.0,0.057
385.0,0.057
386.0,0.058
387.0,0.058
388.0,0.059
389.0,0.059
390.0,0.059
391.0,0.059
392.0,0.059
393.0,0.059
394.0,0.059
395.0,0.059
396.0,0.058
397.0,0.058
398.0,0.058
399.0,0.057
400.0,0.057
401.0,0.057
402.0,0.056
403.0,0.055
404.0,0.055
405.0,0.054
406.0,0.054
407.0,0.053
408.0,0.052
409.0,0.051
410.0,0.051
411.0,0.050
412.0,0.049
413.0,0.048
414.0,0.048
415.0,0.047
416.0,0.046
417.0,0.045
418.0,0.044
419.0,0.044
420.0,0.043
421.0,0.042
422.0,0.041
423.0,0.040
424.0,0.040
425.0,0.039
426.0,0.038
427.0,0.037
428.0,0.037
429.0,0.036
430.0,0.035
431.0,0.035
432.0,0.034
433.0,0.033
434.0,0.033
435.0,0.032
436.0,0.032
437.0,0.031
438.0,0.031
439.0,0.030
440.0,0.030
441.0,0.029
442.0,0.029
443.0,0.029
444.0,0.028
445.0,0.028
446.0,0.028
447.0,0.027
448.0,0.027
449.0,0.027
450.0,0.027
451.0,0.026
452.0,0.026
453.0,0.026
454.0,0.026
455.0,0.025
456.0,0.025
457.0,0.025
458.0,0.025
459.0,0.025
460.0,0.024
461.0,0.024
462.0,0.024
463.0,0.024
464.0,0.024
465.0,0.023
466.0,0.023
467.0,0.023
468.0,0.023
469.0,0.022
470.0,0.022
471.0,0.022
472.0,0.022
473.0,0.021
474.0,0.021
475.0,0.021
476.0,0.021
477.0,0.021
478.0,0.020
479.0,0.020
480.0,0.020
481.0,0.019
482.0,0.019
483.0,0.019
484.0,0.019
485.0,0.018
486.0,0.018
487.0,0.018
488.0,0.017
489.0,0.017
490.0,0.017
491.0,0.017
492.0,0.016
493.0,0.016
494.0,0.016
495.0,0.016
496.0,0.015
497.0,0.015
498.0,0.015
499.0,0.015
500.0,0.014
501.0,0.014
502.0,0.014
503.0,0.014
504.0,0.013
505.0,0.013
506.0,0.013
507.0,0.013
508.0,0.013
509.0,0.012
510.0,0.012
511.0,0.012
512.0,0.012
513.0,0.012
514.0,0.012
515.0,0.011
516.0,0.011
517.0,0.011
518.0,0.011
519.0,0.011
520.0,0.011
521.0,0.011
522.0,0.010
523.0,0.010
524.0,0.010
525.0,0.010
526.0,0.010
527.0,0.010
528.0,0.010
529.0,0.010
530.0,0.010
531.0,0.010
532.0,0.010
533.0,0.009
534.0,0.009
535.0,0.009
536.0,0.009
537.0,0.009
538.0,0.009
539.0,0.009
540.0,0.009
541.0,0.009
542.0,0.009
543.0,0.009
544.0,0.009
545.0,0.009
546.0,0.009
547.0,0.009
548.0,0.009
549.0,0.009
550.0,0.009
551.0,0.009
552.0,0.008
553.0,0.008
554.0,0.008
555.0,0.008
556.0,0.008
557.0,0.008
558.0,0.008
559.0,0.008
560.0,0.008
561.0,0.008
562.0,0.008
563.0,0.008
564.0,0.008
565.0,0.008
566.0,0.008
567.0,0.008
568.0,0.008
569.0,0.008
570.0,0.008
571.0,0.008
572.0,0.008
573.0,0.007
574.0,0.007
575.0,0.007
576.0,0.007
577.0,0.007
578.0,0.007
579.0,0.007
580.0,0.007
581.0,0.007
582.0,0.007
583.0,0.007
584.0,0.007
585.0,0.007
586.0,0.007
587.0,0.007
588.0,0.007
589.0,0.007
590.0,0.007
591.0,0.007
592.0,0.007
593.0,0.007
594.0,0.006
595.0,0.006
596.0,0.006
597.0,0.006
598.0,0.006
599.0,0.006
600.0,0.006
601.0,0.006
602.0,0.006
603.0,0.006
604.0,0.006
605.0,0.006
606.0,0.006
607.0,0.006
608.0,0.006
609.0,0.006
610.0,0.006
611.0,0.006
612.0,0.006
613.0,0.006
614.0,0.005
615.0,0.006
616.0,0.005
617.0,0.005
618.0,0.005
619.0,0.005
620.0,0.005
621.0,0.005
622.0,0.005
623.0,0.005
624.0,0.005
625.0,0.005
626.0,0.005
627.0,0.005
628.0,0.005
629.0,0.005
630.0,0.005
631.0,0.005
632.0,0.005
633.0,0.005
634.0,0.005
635.0,0.005
636.0,0.005
637.0,0.005
638.0,0.005
639.0,0.005
640.0,0.005
641.0,0.005
642.0,0.005
643.0,0.005
644.0,0.005
645.0,0.005
646.0,0.005
647.0,0.005
648.0,0.005
649.0,0.005
650.0,0.005
651.0,0.005
652.0,0.005
653.0,0.005
654.0,0.005
655.0,0.005
656.0,0.005
657.0,0.005
658.0,0.005
659.0,0.005
660.0,0.005
661.0,0.004
662.0,0.004
663.0,0.004
664.0,0.004
665.0,0.005
666.0,0.005
667.0,0.004
668.0,0.004
669.0,0.004
670.0,0.004
671.0,0.004
672.0,0.004
673.0,0.004
674.0,0.004
675.0,0.004
676.0,0.004
677.0,0.004
678.0,0.004
679.0,0.004
680.0,0.004
681.0,0.004
682.0,0.004
683.0,0.004
684.0,0.004
685.0,0.004
686.0,0.004
687.0,0.004
688.0,0.004
689.0,0.004
690.0,0.004
691.0,0.004
692.0,0.004
693.0,0.004
694.0,0.004
695.0,0.004
696.0,0.004
697.0,0.004
698.0,0.004
699.0,0.004
700.0,0.004
701.0,0.004
702.0,0.004
703.0,0.004
704.0,0.004
705.0,0.004
706.0,0.004
707.0,0.004
708.0,0.004
709.0,0.004
710.0,0.004
711.0,0.004
712.0,0.004
713.0,0.004
714.0,0.004
715.0,0.004
716.0,0.004
717.0,0.004
718.0,0.004
719.0,0.004
720.0,0.004
721.0,0.003
722.0,0.003
723.0,0.003
724.0,0.003
725.0,0.003
726.0,0.003
727.0,0.003
728.0,0.003
729.0,0.003
730.0,0.003
731.0,0.003
732.0,0.003
733.0,0.003
734.0,0.003
735.0,0.003
736.0,0.003
737.0,0.003
738.0,0.003
739.0,0.003
740.0,0.003
741.0,0.003
742.0,0.003
743.0,0.003
744.0,0.003
745.0,0.003
746.0,0.003
747.0,0.003
748.0,0.003
749.0,0.003
750.0,0.003
751.0,0.003
752.0,0.003
753.0,0.003
754.0,0.003
755.0,0.003
756.0,0.003
757.0,0.003
758.0,0.003
759.0,0.003
760.0,0.003
761.0,0.003
762.0,0.003
763.0,0.003
764.0,0.003
765.0,0.003
766.0,0.003
767.0,0.003
768.0,0.003
769.0,0.003
770.0,0.003
771.0,0.003
772.0,0.003
773.0,0.002
774.0,0.002
775.0,0.002
776.0,0.003
777.0,0.002
778.0,0.002
779.0,0.003
780.0,0.002
781.0,0.002
782.0,0.002
783.0,0.002
784.0,0.002
785.0,0.002
786.0,0.002
787.0,0.002
788.0,0.002
789.0,0.002
790.0,0.002
791.0,0.002
792.0,0.003
793.0,0.002
794.0,0.002
795.0,0.002
796.0,0.002
797.0,0.003
798.0,0.003
799.0,0.002
800.0,0.002
